<?xml version="1.0" encoding="UTF-8"?>
<Bundle xmlns="http://hl7.org/fhir">
   <identifier>
      <system value="urn:ietf:rfc:3986"/>
      <value value="urn:uuid:56ffe4b9-5641-4d90-8443-8e12f091ddab"/>
   </identifier>
   <type value="document"/>
   <timestamp value="2025-06-20T11:33:25.5961346+02:00"/>
   <entry>
      <fullUrl value="urn:uuid:40bdff8f-dcf3-4670-9ffb-11c15933dd57"/>
      <resource>
         <Composition>
            <language value="en-GB"/>
            <text>
               <status value="generated"/>
               <div xmlns="http://www.w3.org/1999/xhtml">
                  <table class="header_table"
                         style="border: 1pt inset #00008b; line-height: 10pt; width: 100%;">
                     <tbody>
                        <tr>
                           <td class="td_header_role_name"
                               style="width: 20%; background-color: #3399ff; padding: 0.1cm 0.2cm; vertical-align: top; background-color: #ffffcc;">
                              <span class="td_label">Document Id</span>
                           </td>
                           <td class="td_header_role_value">IPS_2025015761_1 2.16.840.1.113883.4.292.20.1.1.1.23</td>
                        </tr>
                        <tr>
                           <td class="td_header_role_name"
                               style="width: 20%; background-color: #3399ff; padding: 0.1cm 0.2cm; vertical-align: top; background-color: #ffffcc;">
                              <span class="td_label">Document Created:</span>
                           </td>
                           <td class="td_header_role_value">June 19, 2025, 11:07 +0200 </td>
                        </tr>
                     </tbody>
                  </table>
                  <table class="header_table"
                         style="border: 1pt inset #00008b; line-height: 10pt; width: 100%;">
                     <tbody><!--documentationOf/serviceEvent-->
                        <tr>
                           <td class="td_header_role_name"
                               style="width: 20%; background-color: #3399ff; padding: 0.1cm 0.2cm; vertical-align: top; background-color: #ffffcc;">
                              <span class="td_label">Care provision</span>
                           </td>
                           <td class="td_header_role_value">Service Event at June 19, 2025, 11:07 +0200 </td>
                        </tr>
                        <tr>
                           <td class="td_header_role_name"
                               style="width: 20%; background-color: #3399ff; padding: 0.1cm 0.2cm; vertical-align: top; background-color: #ffffcc;">
                              <span class="td_label">Performer (primary care provider)</span>
                           </td>
                           <td class="td_header_role_value">Ricard Sabartés of Dexeus Mujer Barcelona</td>
                        </tr>
                     </tbody>
                  </table>
                  <table class="header_table"
                         style="border: 1pt inset #00008b; line-height: 10pt; width: 100%;">
                     <tbody><!--Author-->
                        <tr>
                           <td class="td_header_role_name"
                               style="width: 20%; background-color: #3399ff; padding: 0.1cm 0.2cm; vertical-align: top; background-color: #ffffcc;">
                              <span class="td_label">Author</span>
                           </td>
                           <td class="td_header_role_value">Ricard Sabartés</td>
                        </tr>
                        <tr>
                           <td class="td_header_role_name"
                               style="width: 20%; background-color: #3399ff; padding: 0.1cm 0.2cm; vertical-align: top; background-color: #ffffcc;">
                              <span class="td_label">Contact info</span>
                           </td>
                           <td class="td_header_role_value"> Work Place:<br/>Gran Via de Carles III 71-75<br/>BARCELONA, BARCELONA 08028, ES<br/>Mail:  ricsab@dexeus.com<br/>
                           </td>
                        </tr>
                     </tbody>
                  </table>
                  <table class="header_table"
                         style="border: 1pt inset #00008b; line-height: 10pt; width: 100%;">
                     <tbody>
                        <tr>
                           <td class="td_header_role_name"
                               style="width: 20%; background-color: #3399ff; padding: 0.1cm 0.2cm; vertical-align: top; background-color: #ffffcc;">
                              <span class="td_label">Legal authenticator</span>
                           </td>
                           <td class="td_header_role_value">Ricard Sabartés of Dexeus Mujer Barcelona signed at June 19, 2025, 11:07 +0200 </td>
                        </tr>
                        <tr>
                           <td class="td_header_role_name"
                               style="width: 20%; background-color: #3399ff; padding: 0.1cm 0.2cm; vertical-align: top; background-color: #ffffcc;">
                              <span class="td_label">Contact info</span>
                           </td>
                           <td class="td_header_role_value">
                              <br/>
                              <br/>
                           </td>
                        </tr>
                     </tbody>
                  </table>
                  <table class="header_table"
                         style="border: 1pt inset #00008b; line-height: 10pt; width: 100%;">
                     <tbody>
                        <tr>
                           <td class="td_header_role_name"
                               style="width: 20%; background-color: #3399ff; padding: 0.1cm 0.2cm; vertical-align: top; background-color: #ffffcc;">
                              <span class="td_label">Document maintained by</span>
                           </td>
                           <td class="td_header_role_value">Dexeus Mujer Barcelona</td>
                        </tr>
                        <tr>
                           <td class="td_header_role_name"
                               style="width: 20%; background-color: #3399ff; padding: 0.1cm 0.2cm; vertical-align: top; background-color: #ffffcc;">
                              <span class="td_label">Contact info</span>
                           </td>
                           <td class="td_header_role_value"> Work Place:<br/>Gran Via Carles III, 71-75<br/>Barcelona, Barcelona 08028, ES<br/>Tel:  932274727<br/>
                           </td>
                        </tr>
                     </tbody>
                  </table>
               </div>
            </text>
            <identifier>
               <system value="urn:ietf:rfc:3986"/>
               <value value="urn:uuid:40bdff8f-dcf3-4670-9ffb-11c15933dd57"/>
            </identifier>
            <status value="final"/>
            <type>
               <coding>
                  <system value="http://loinc.org"/>
                  <code value="60591-5"/>
                  <display value="Patient Summary"/>
               </coding>
            </type>
            <subject>
               <reference value="urn:uuid:00da4b10-f4f8-40b4-8385-7692ce05db14"/>
            </subject>
            <date value="2025-06-19T11:07:00+02:00"/>
            <author>
               <reference value="urn:uuid:331bf557-8b5a-474f-aa71-4ab1ff30cfdf"/>
            </author>
            <title value="International Patient Summary."/>
            <confidentiality value="N"/>
            <attester>
               <mode value="legal"/>
               <time value="2025-06-19T11:07:00+02:00"/>
               <party>
                  <reference value="urn:uuid:33c36e32-86b3-4ed5-9437-7635abf531f6"/>
               </party>
            </attester>
            <custodian>
               <reference value="urn:uuid:c99e52cd-5906-4944-b9f9-d0608a32ffb5"/>
            </custodian>
            <relatesTo>
               <code value="transforms"/>
               <targetIdentifier>
                  <system value="urn:oid:2.16.840.1.113883.4.292.20.1.1.1.23"/>
                  <value value="IPS_2025015761_1"/>
               </targetIdentifier>
            </relatesTo>
            <event>
               <period>
                  <start value="2025-06-19T11:07:00+02:00"/>
                  <end value="2025-06-19T11:07:00+02:00"/>
               </period>
            </event>
            <section>
               <title value="Medication Summary"/>
               <code>
                  <coding>
                     <system value="http://loinc.org"/>
                     <code value="10160-0"/>
                     <display value="Medication Summary"/>
                  </coding>
               </code>
               <text>
                  <status value="generated"/>
                  <div xmlns="http://www.w3.org/1999/xhtml">
                     <p>
                        <span class="Bold">Currently active medications</span>
                     </p>
                     <table>
                        <tbody>
                           <tr>
                              <th>
                                 <span>Product and</span>
                                 <br/>
                                 <span>dose form</span>
                              </th>
                              <th>
                                 <span>Dose and</span>
                                 <br/>
                                 <span>frequency</span>
                              </th>
                              <th>Route</th>
                              <th>Duration</th>
                              <th>Comments</th>
                           </tr>
                           <tr>
                              <td>
                                 <span>LYRICA</span>
                                 <br/>
                                 <span>Capsule, soft</span>
                              </td>
                              <td>
                                 <span>1 Capsule, soft</span>
                                 <br/>
                                 <span>each 1 day</span>
                              </td>
                              <td>
                                 <span>Oral use</span>
                              </td>
                              <td>
                                 <span>2025-06-06</span>
                                 <br/>
                                 <span>2026-01-02</span>
                              </td>
                              <td/>
                           </tr>
                           <tr>
                              <td>
                                 <span>ACICLOVIR CINFA EFG</span>
                                 <br/>
                                 <span>Tablet</span>
                              </td>
                              <td>
                                 <span>1 Tablet</span>
                                 <br/>
                                 <span>each 1 day</span>
                              </td>
                              <td>
                                 <span>Oral use</span>
                              </td>
                              <td>
                                 <span>2025-06-06</span>
                                 <br/>
                                 <span>2026-01-02</span>
                              </td>
                              <td/>
                           </tr>
                        </tbody>
                     </table>
                  </div>
               </text>
               <!--2.16.840.1.113883.10.22.4.4-->
               <entry>
                  <reference value="urn:uuid:34493931-cd20-4ad0-8e04-43065865b265"/>
               </entry>
               <!--2.16.840.1.113883.10.22.4.4-->
               <entry>
                  <reference value="urn:uuid:17edb00b-36ca-4584-8c8c-655feb68e764"/>
               </entry>
            </section>
            <section>
               <title value="Allergies and Other Adverse Reactions"/>
               <code>
                  <coding>
                     <system value="http://loinc.org"/>
                     <code value="48765-2"/>
                     <display value="Alergies, adverse reactions, alerts"/>
                  </coding>
               </code>
               <text>
                  <status value="generated"/>
                  <div xmlns="http://www.w3.org/1999/xhtml">
                     <span>No known allergies</span>
                  </div>
               </text>
               <!--2.16.840.1.113883.10.22.4.5-->
               <entry>
                  <reference value="urn:uuid:06960025-e24d-465c-abe3-3a0a984d63e3"/>
               </entry>
            </section>
            <section>
               <title value="Active Problems"/>
               <code>
                  <coding>
                     <system value="http://loinc.org"/>
                     <code value="11450-4"/>
                     <display value="Problem list"/>
                  </coding>
               </code>
               <text>
                  <status value="generated"/>
                  <div xmlns="http://www.w3.org/1999/xhtml">
                     <table border="1PX">
                        <tbody>
                           <tr>
                              <th>Problem</th>
                              <th>Onset time</th>
                           </tr>
                           <tr>
                              <td>Herpes zoster 	</td>
                              <td>2025-06-04</td>
                           </tr>
                           <tr>
                              <td>Epilepsy </td>
                              <td>2005-11-30</td>
                           </tr>
                           <tr>
                              <td>Hypertensive disorder</td>
                              <td>2022-02-18</td>
                           </tr>
                           <tr>
                              <td>Diabetes type 2</td>
                              <td>2018-10-21</td>
                           </tr>
                        </tbody>
                     </table>
                  </div>
               </text>
               <!--2.16.840.1.113883.10.22.4.7-->
               <entry>
                  <reference value="urn:uuid:f1b424a5-0676-4c38-a491-7f62ab3737bc"/>
               </entry>
               <!--2.16.840.1.113883.10.22.4.7-->
               <entry>
                  <reference value="urn:uuid:5dbf0c22-5374-4b6a-8005-b76700c64801"/>
               </entry>
               <!--2.16.840.1.113883.10.22.4.7-->
               <entry>
                  <reference value="urn:uuid:48447ee9-cec0-4b2b-a0fe-03a9ca74ca6e"/>
               </entry>
               <!--2.16.840.1.113883.10.22.4.7-->
               <entry>
                  <reference value="urn:uuid:b8b2a2be-8fbd-41f7-8016-e66d1b59fd79"/>
               </entry>
            </section>
            <section>
               <title value="Immunizations"/>
               <code>
                  <coding>
                     <system value="http://loinc.org"/>
                     <code value="11369-6"/>
                     <display value="History of immunizations"/>
                  </coding>
               </code>
               <text>
                  <status value="generated"/>
                  <div xmlns="http://www.w3.org/1999/xhtml">
                     <table>
                        <tbody>
                           <tr>
                              <th>
                                 <span>Date</span>
                              </th>
                              <th>
                                 <span>Vaccine</span>
                              </th>
                              <th>
                                 <span>Dose</span>
                              </th>
                              <th>
                                 <span>Reference</span>
                              </th>
                              <th>
                                 <span>Lot</span>
                              </th>
                           </tr>
                           <tr>
                              <td>
                                 <span>2024-05-06</span>
                              </td>
                              <td>
                                 <span>Hepatitis AB ()</span>
                              </td>
                              <td>
                                 <span>1</span>
                              </td>
                              <td>
                                 <span>HP16544</span>
                              </td>
                              <td>
                                 <span>79511</span>
                              </td>
                           </tr>
                           <tr>
                              <td>
                                 <span>2021-06-06</span>
                              </td>
                              <td>
                                 <span>Covid-19 ()</span>
                              </td>
                              <td>
                                 <span>1</span>
                              </td>
                              <td>
                                 <span>PF64112</span>
                              </td>
                              <td>
                                 <span>4615625</span>
                              </td>
                           </tr>
                        </tbody>
                     </table>
                  </div>
               </text>
               <!--2.16.840.1.113883.10.22.4.15-->
               <entry>
                  <reference value="urn:uuid:7a176333-2f4a-478a-97d0-bca9e99fae64"/>
               </entry>
               <!--2.16.840.1.113883.10.22.4.15-->
               <entry>
                  <reference value="urn:uuid:806799b7-c9db-492d-84ad-68827fec3bfa"/>
               </entry>
            </section>
         </Composition>
      </resource>
   </entry>
   <entry>
      <fullUrl value="urn:uuid:00da4b10-f4f8-40b4-8385-7692ce05db14"/>
      <resource>
         <Patient>
            <meta>
               <profile value="http://hl7.org/fhir/us/core/StructureDefinition/us-core-patient"/>
            </meta>
            <text>
               <status value="generated"/>
               <div xmlns="http://www.w3.org/1999/xhtml">
                  <h1>PERONI ., MARCO</h1>
                  <p>Telecom: tel:34628901083</p>
                  <p>Address: LANDSTRASSE, 3<br/>VIENNA<br/>VIENNA<br/>22181<br/>AT</p>
                  <p>Gender: M</p>
                  <p>Birthdate: 1995-07-28</p>
               </div>
            </text>
            <extension url="http://hl7.org/fhir/StructureDefinition/patient-mothersMaidenName">
               <valueString value="."/>
            </extension>
            <identifier>
               <system value="urn:oid:2.16.840.1.113883.4.292.20.1.1.20.1"/>
               <value value="2025015761"/>
            </identifier>
            <identifier>
               <system value="urn:oid:2.16.840.1.113883.4.330"/>
               <value value="EUR01P0011"/>
            </identifier>
            <name>
               <text value="PERONI . , MARCO"/>
               <family value="PERONI"/>
               <given value="MARCO"/>
            </name>
            <telecom>
               <system value="phone"/>
               <value value="34628901083"/>
            </telecom>
            <gender value="male"/>
            <birthDate value="1995-07-28"/>
            <address>
               <line value="LANDSTRASSE, 3"/>
               <city value="VIENNA"/>
               <state value="VIENNA"/>
               <postalCode value="22181"/>
               <country value="AT"/>
            </address>
         </Patient>
      </resource>
   </entry>
   <entry>
      <fullUrl value="urn:uuid:331bf557-8b5a-474f-aa71-4ab1ff30cfdf"/>
      <resource>
         <Practitioner><!--ClinicalDocument[cda:id[@root="2.16.840.1.113883.4.292.20.1.1.1.23"]]/author-->
            <meta>
               <profile value="http://hl7.org/fhir/us/core/StructureDefinition/us-core-practitioner"/>
            </meta>
            <text>
               <status value="generated"/>
               <div xmlns="http://www.w3.org/1999/xhtml">
                  <p>Name: Sabartés Fortuny, Ricard</p>
                  <p>---TODO: ID info---</p>
                  <p>Telephone: mailto:ricsab@dexeus.com</p>
               </div>
            </text>
            <identifier>
               <system value="urn:oid:2.16.840.1.113883.4.292.20.1.1.14.1"/>
               <value value="RICSAB"/>
            </identifier>
            <identifier>
               <system value="urn:oid:2.16.840.1.113883.2.19.10.8"/>
               <value value="080837292"/>
            </identifier>
            <name>
               <text value="Sabartés Fortuny , Ricard"/>
               <family value="Sabartés"/>
               <given value="Ricard"/>
            </name>
            <telecom>
               <system value="email"/>
               <value value="ricsab@dexeus.com"/>
               <use value="work"/>
            </telecom>
            <address>
               <use value="work"/>
               <line value="Gran Via de Carles III 71-75"/>
               <city value="BARCELONA"/>
               <state value="BARCELONA"/>
               <postalCode value="08028"/>
               <country value="ES"/>
            </address>
            <qualification>
               <code>
                  <coding>
                     <system value="http://nucc.org/provider-taxonomy"/>
                     <code value="207V00000X"/>
                  </coding>
               </code>
            </qualification>
         </Practitioner>
      </resource>
   </entry>
   <entry>
      <fullUrl value="urn:uuid:c99e52cd-5906-4944-b9f9-d0608a32ffb5"/>
      <resource>
         <Organization>
            <identifier>
               <system value="urn:ietf:rfc:3986"/>
               <value value="urn:oid:2.16.840.1.113883.4.292.20.1.1"/>
            </identifier>
            <name value="Dexeus Mujer Barcelona"/>
            <telecom>
               <system value="phone"/>
               <value value="932274727"/>
               <use value="work"/>
            </telecom>
            <address>
               <use value="work"/>
               <line value="Gran Via Carles III, 71-75"/>
               <city value="Barcelona"/>
               <state value="Barcelona"/>
               <postalCode value="08028"/>
               <country value="ES"/>
            </address>
         </Organization>
      </resource>
   </entry>
   <entry>
      <fullUrl value="urn:uuid:33c36e32-86b3-4ed5-9437-7635abf531f6"/>
      <resource>
         <Practitioner><!--ClinicalDocument[cda:id[@root="2.16.840.1.113883.4.292.20.1.1.1.23"]]/legalAuthenticator-->
            <meta>
               <profile value="http://hl7.org/fhir/us/core/StructureDefinition/us-core-practitioner"/>
            </meta>
            <text>
               <status value="generated"/>
               <div xmlns="http://www.w3.org/1999/xhtml">
                  <p>Name: Sabartés Fortuny, Ricard</p>
                  <p>---TODO: ID info---</p>
                  <p>Telephone: </p>
               </div>
            </text>
            <identifier>
               <system value="urn:oid:2.16.840.1.113883.4.292.20.1.1.14.1"/>
               <value value="RICSAB"/>
            </identifier>
            <identifier>
               <system value="urn:oid:2.16.840.1.113883.2.19.10.8"/>
               <value value="080837292"/>
            </identifier>
            <name>
               <text value="Sabartés Fortuny , Ricard"/>
               <family value="Sabartés"/>
               <given value="Ricard"/>
            </name>
            <!--Omitting null telecom-->
         </Practitioner>
      </resource>
   </entry>
   <entry>
      <fullUrl value="urn:uuid:34493931-cd20-4ad0-8e04-43065865b265"/>
      <resource>
         <MedicationRequest>
            <meta>
               <profile value="http://hl7.org/fhir/us/core/StructureDefinition/us-core-medicationrequest"/>
            </meta>
            <identifier>
               <system value="urn:oid:2.16.840.1.113883.4.292.20.1.1.1.17"/>
               <value value="PENDENT"/>
            </identifier>
            <status value="active"/>
            <intent value="order"/>
            <medicationCodeableConcept>
               <coding>
                  <system value="urn:oid:2.16.724.4.21.5.15.4"/>
                  <code value="199195"/>
                  <display value="LYRICA 150 mg 56 CAPSULAS"/>
               </coding>
            </medicationCodeableConcept>
            <subject>
               <reference value="urn:uuid:00da4b10-f4f8-40b4-8385-7692ce05db14"/>
            </subject>
            <authoredOn value="2025-06-19T11:07:00+02:00"/>
            <requester>
               <reference value="urn:uuid:331bf557-8b5a-474f-aa71-4ab1ff30cfdf"/>
            </requester>
            <dosageInstruction>
               <timing>
                  <repeat>
                     <period value="1"/>
                     <periodUnit value="d"/>
                  </repeat>
               </timing>
               <route>
                  <coding>
                     <system value="http://fhir.de/CodeSystem/edqm"/>
                     <code value="20053000"/>
                  </coding>
               </route>
            </dosageInstruction>
            <dispenseRequest>
               <validityPeriod>
                  <start value="2025-06-06"/>
                  <end value="2026-01-02"/>
               </validityPeriod>
            </dispenseRequest>
         </MedicationRequest>
      </resource>
   </entry>
   <entry>
      <fullUrl value="urn:uuid:17edb00b-36ca-4584-8c8c-655feb68e764"/>
      <resource>
         <MedicationRequest>
            <meta>
               <profile value="http://hl7.org/fhir/us/core/StructureDefinition/us-core-medicationrequest"/>
            </meta>
            <identifier>
               <system value="urn:oid:2.16.840.1.113883.4.292.20.1.1.1.17"/>
               <value value="PENDENT"/>
            </identifier>
            <status value="active"/>
            <intent value="order"/>
            <medicationCodeableConcept>
               <coding>
                  <system value="urn:oid:2.16.724.4.21.5.15.4"/>
                  <code value="397167"/>
                  <display value="ACICLOVIR CINFA EFG 800 mg 35 COMPRIMIDOS"/>
               </coding>
            </medicationCodeableConcept>
            <subject>
               <reference value="urn:uuid:00da4b10-f4f8-40b4-8385-7692ce05db14"/>
            </subject>
            <authoredOn value="2025-06-19T11:07:00+02:00"/>
            <requester>
               <reference value="urn:uuid:331bf557-8b5a-474f-aa71-4ab1ff30cfdf"/>
            </requester>
            <dosageInstruction>
               <timing>
                  <repeat>
                     <period value="1"/>
                     <periodUnit value="d"/>
                  </repeat>
               </timing>
               <route>
                  <coding>
                     <system value="http://fhir.de/CodeSystem/edqm"/>
                     <code value="20053000"/>
                  </coding>
               </route>
            </dosageInstruction>
            <dispenseRequest>
               <validityPeriod>
                  <start value="2025-06-06"/>
                  <end value="2026-01-02"/>
               </validityPeriod>
            </dispenseRequest>
         </MedicationRequest>
      </resource>
   </entry>
   <entry>
      <fullUrl value="urn:uuid:06960025-e24d-465c-abe3-3a0a984d63e3"/>
      <resource>
         <AllergyIntolerance>
            <clinicalStatus>
               <coding>
                  <system value="http://terminology.hl7.org/CodeSystem/allergyintolerance-clinical"/>
                  <code value="active"/>
               </coding>
            </clinicalStatus>
            <type value="intolerance"/>
            <code>
               <coding>
                  <system value="http://hl7.org/fhir/uv/ips/CodeSystem/absent-unknown-uv-ips"/>
                  <code value="no-known-allergies"/>
                  <display value="No information about allergies"/>
               </coding>
            </code>
            <patient>
               <reference value="urn:uuid:00da4b10-f4f8-40b4-8385-7692ce05db14"/>
            </patient>
         </AllergyIntolerance>
      </resource>
   </entry>
   <entry>
      <fullUrl value="urn:uuid:f1b424a5-0676-4c38-a491-7f62ab3737bc"/>
      <resource>
         <Condition>
            <identifier>
               <system value="urn:ietf:rfc:3986"/>
               <value value="urn:uuid:96D99B62-169D-43F4-B0F1-CD7DE4576603"/>
            </identifier>
            <clinicalStatus>
               <coding>
                  <system value="http://terminology.hl7.org/CodeSystem/condition-clinical"/>
                  <code value="active"/>
               </coding>
            </clinicalStatus>
            <category>
               <coding>
                  <system value="http://loinc.org"/>
                  <code value="75326-9"/>
                  <display value="Problem"/>
               </coding>
            </category>
            <code>
               <coding>
                  <system value="urn:oid:2.16.840.1.113883.6.5"/>
                  <code value="4740000"/>
                  <display value="Herpes zoster &#x9;"/>
               </coding>
               <text value="Herpes zoster"/>
            </code>
            <subject>
               <reference value="urn:uuid:00da4b10-f4f8-40b4-8385-7692ce05db14"/>
            </subject>
            <onsetDateTime value="2025-06-04"/>
         </Condition>
      </resource>
   </entry>
   <entry>
      <fullUrl value="urn:uuid:5dbf0c22-5374-4b6a-8005-b76700c64801"/>
      <resource>
         <Condition>
            <identifier>
               <system value="urn:ietf:rfc:3986"/>
               <value value="urn:uuid:96D99B62-169D-43F4-B0F1-CD7DE4576603"/>
            </identifier>
            <clinicalStatus>
               <coding>
                  <system value="http://terminology.hl7.org/CodeSystem/condition-clinical"/>
                  <code value="active"/>
               </coding>
            </clinicalStatus>
            <category>
               <coding>
                  <system value="http://loinc.org"/>
                  <code value="75326-9"/>
                  <display value="Problem"/>
               </coding>
            </category>
            <code>
               <coding>
                  <system value="urn:oid:2.16.840.1.113883.6.5"/>
                  <code value="84757009"/>
                  <display value="Epilepsy "/>
               </coding>
               <text value="Epilepsy"/>
            </code>
            <subject>
               <reference value="urn:uuid:00da4b10-f4f8-40b4-8385-7692ce05db14"/>
            </subject>
            <onsetDateTime value="2005-11-30"/>
         </Condition>
      </resource>
   </entry>
   <entry>
      <fullUrl value="urn:uuid:48447ee9-cec0-4b2b-a0fe-03a9ca74ca6e"/>
      <resource>
         <Condition>
            <identifier>
               <system value="urn:ietf:rfc:3986"/>
               <value value="urn:uuid:96D99B62-169D-43F4-B0F1-CD7DE4576603"/>
            </identifier>
            <clinicalStatus>
               <coding>
                  <system value="http://terminology.hl7.org/CodeSystem/condition-clinical"/>
                  <code value="active"/>
               </coding>
            </clinicalStatus>
            <category>
               <coding>
                  <system value="http://loinc.org"/>
                  <code value="75326-9"/>
                  <display value="Problem"/>
               </coding>
            </category>
            <code>
               <coding>
                  <system value="urn:oid:2.16.840.1.113883.6.5"/>
                  <code value="38341003"/>
                  <display value="Hypertensive disorder"/>
               </coding>
               <text value="Hypertensive disorder"/>
            </code>
            <subject>
               <reference value="urn:uuid:00da4b10-f4f8-40b4-8385-7692ce05db14"/>
            </subject>
            <onsetDateTime value="2022-02-18"/>
         </Condition>
      </resource>
   </entry>
   <entry>
      <fullUrl value="urn:uuid:b8b2a2be-8fbd-41f7-8016-e66d1b59fd79"/>
      <resource>
         <Condition>
            <identifier>
               <system value="urn:ietf:rfc:3986"/>
               <value value="urn:uuid:96d99b62-169d-43f4-b0f1-cd7de4576603"/>
            </identifier>
            <clinicalStatus>
               <coding>
                  <system value="http://terminology.hl7.org/CodeSystem/condition-clinical"/>
                  <code value="active"/>
               </coding>
            </clinicalStatus>
            <category>
               <coding>
                  <system value="http://loinc.org"/>
                  <code value="75326-9"/>
                  <display value="Problem"/>
               </coding>
            </category>
            <code>
               <coding>
                  <system value="urn:oid:2.16.840.1.113883.6.5"/>
                  <code value="44054006"/>
                  <display value="Diabetes type 2"/>
               </coding>
               <text value="Diabetes type 2"/>
            </code>
            <subject>
               <reference value="urn:uuid:00da4b10-f4f8-40b4-8385-7692ce05db14"/>
            </subject>
            <onsetDateTime value="2018-10-21"/>
         </Condition>
      </resource>
   </entry>
   <entry>
      <fullUrl value="urn:uuid:7a176333-2f4a-478a-97d0-bca9e99fae64"/>
      <resource>
         <Immunization>
            <identifier>
               <system value="urn:uuid:4a9c441d-ddde-4acf-9140-8071b08e4190"/>
               <value value="#VAC.72900"/>
            </identifier>
            <status value="completed"/>
            <vaccineCode>
               <coding>
                  <system value="http://snomed.info/sct"/>
                  <code value="312868009"/>
                  <display value="Administration of Hepatitis A and B vaccine"/>
               </coding>
            </vaccineCode>
            <patient>
               <reference value="urn:uuid:00da4b10-f4f8-40b4-8385-7692ce05db14"/>
            </patient>
            <occurrenceDateTime value="2024-05-06"/>
            <doseQuantity>
               <value value="1"/>
            </doseQuantity>
         </Immunization>
      </resource>
   </entry>
   <entry>
      <fullUrl value="urn:uuid:806799b7-c9db-492d-84ad-68827fec3bfa"/>
      <resource>
         <Immunization>
            <identifier>
               <system value="urn:uuid:4a9c441d-ddde-4acd-9140-8071b08e4190"/>
               <value value="#VAC.72901"/>
            </identifier>
            <status value="completed"/>
            <vaccineCode>
               <coding>
                  <system value="http://snomed.info/sct"/>
                  <code value="840534001"/>
                  <display value="Administration of SARS-CoV-2 antigen vaccine"/>
               </coding>
            </vaccineCode>
            <patient>
               <reference value="urn:uuid:00da4b10-f4f8-40b4-8385-7692ce05db14"/>
            </patient>
            <occurrenceDateTime value="2021-06-06"/>
            <doseQuantity>
               <value value="1"/>
            </doseQuantity>
         </Immunization>
      </resource>
   </entry>
</Bundle>
